File: experimental_data/characterization_data/XRD/EA_400_19112025.xy
5,0022	59,0000
5,0831	54,0000
5,1639	55,0000
5,2448	49,0000
5,3256	49,0000
5,4065	50,0000
5,4873	53,0000
5,5682	41,0000
5,6490	38,0000
5,7299	41,0000
5,8108	43,0000
5,8916	32,0000
5,9725	23,0000
6,0533	24,0000
6,1342	25,0000
6,2150	15,0000
6,2959	15,0000
6,3767	23,0000
6,4576	21,0000
6,5384	12,0000
6,6193	13,0000
6,7001	11,0000
6,7810	19,0000
6,8619	18,0000
6,9427	13,0000
7,0236	17,0000
7,1044	15,0000
7,1853	20,0000
7,2661	8,0000
7,3470	15,0000
7,4278	14,0000
7,5087	9,0000
7,5895	12,0000
7,6704	12,0000
7,7512	12,0000
7,8321	12,0000
7,9129	7,0000
7,9938	7,0000
8,0747	7,0000
8,1555	15,0000
8,2364	11,0000
8,3172	9,0000
8,3981	8,0000
8,4789	13,0000
8,5598	6,0000
8,6406	8,0000
8,7215	8,0000
8,8023	6,0000
8,8832	7,0000
8,9640	12,0000
9,0449	16,0000
9,1258	10,0000
9,2066	8,0000
9,2875	10,0000
9,3683	5,0000
9,4492	12,0000
9,5300	7,0000
9,6109	8,0000
9,6917	8,0000
9,7726	10,0000
9,8534	17,0000
9,9343	6,0000
10,0151	13,0000
10,0960	14,0000
10,1768	13,0000
10,2577	13,0000
10,3386	12,0000
10,4194	9,0000
10,5003	12,0000
10,5811	8,0000
10,6620	15,0000
10,7428	14,0000
10,8237	8,0000
10,9045	9,0000
10,9854	13,0000
11,0662	11,0000
11,1471	1,0000
11,2279	13,0000
11,3088	10,0000
11,3897	7,0000
11,4705	6,0000
11,5514	10,0000
11,6322	8,0000
11,7131	17,0000
11,7939	6,0000
11,8748	9,0000
11,9556	10,0000
12,0365	14,0000
12,1173	9,0000
12,1982	7,0000
12,2790	6,0000
12,3599	9,0000
12,4408	7,0000
12,5216	6,0000
12,6025	3,0000
12,6833	7,0000
12,7642	7,0000
12,8450	5,0000
12,9259	12,0000
13,0067	3,0000
13,0876	10,0000
13,1684	3,0000
13,2493	9,0000
13,3301	9,0000
13,4110	7,0000
13,4918	2,0000
13,5727	6,0000
13,6536	9,0000
13,7344	11,0000
13,8153	8,0000
13,8961	6,0000
13,9770	6,0000
14,0578	12,0000
14,1387	11,0000
14,2195	10,0000
14,3004	6,0000
14,3812	10,0000
14,4621	8,0000
14,5429	9,0000
14,6238	15,0000
14,7047	10,0000
14,7855	10,0000
14,8664	4,0000
14,9472	8,0000
15,0281	4,0000
15,1089	7,0000
15,1898	6,0000
15,2706	11,0000
15,3515	2,0000
15,4323	7,0000
15,5132	7,0000
15,5940	13,0000
15,6749	2,0000
15,7557	12,0000
15,8366	7,0000
15,9175	11,0000
15,9983	10,0000
16,0792	8,0000
16,1600	6,0000
16,2409	2,0000
16,3217	8,0000
16,4026	8,0000
16,4834	6,0000
16,5643	6,0000
16,6451	4,0000
16,7260	8,0000
16,8068	8,0000
16,8877	9,0000
16,9686	11,0000
17,0494	10,0000
17,1303	11,0000
17,2111	6,0000
17,2920	6,0000
17,3728	6,0000
17,4537	2,0000
17,5345	7,0000
17,6154	6,0000
17,6962	9,0000
17,7771	3,0000
17,8579	8,0000
17,9388	8,0000
18,0196	7,0000
18,1005	5,0000
18,1814	3,0000
18,2622	8,0000
18,3431	7,0000
18,4239	1,0000
18,5048	7,0000
18,5856	5,0000
18,6665	4,0000
18,7473	3,0000
18,8282	10,0000
18,9090	5,0000
18,9899	4,0000
19,0707	7,0000
19,1516	13,0000
19,2325	9,0000
19,3133	10,0000
19,3942	2,0000
19,4750	8,0000
19,5559	10,0000
19,6367	5,0000
19,7176	7,0000
19,7984	7,0000
19,8793	9,0000
19,9601	8,0000
20,0410	9,0000
20,1218	5,0000
20,2027	7,0000
20,2835	9,0000
20,3644	15,0000
20,4453	10,0000
20,5261	9,0000
20,6070	5,0000
20,6878	13,0000
20,7687	3,0000
20,8495	3,0000
20,9304	8,0000
21,0112	4,0000
21,0921	12,0000
21,1729	4,0000
21,2538	5,0000
21,3346	4,0000
21,4155	9,0000
21,4964	13,0000
21,5772	10,0000
21,6581	9,0000
21,7389	5,0000
21,8198	5,0000
21,9006	5,0000
21,9815	8,0000
22,0623	10,0000
22,1432	2,0000
22,2240	3,0000
22,3049	8,0000
22,3857	6,0000
22,4666	5,0000
22,5474	7,0000
22,6283	13,0000
22,7092	10,0000
22,7900	9,0000
22,8709	4,0000
22,9517	7,0000
23,0326	5,0000
23,1134	9,0000
23,1943	3,0000
23,2751	4,0000
23,3560	4,0000
23,4368	3,0000
23,5177	11,0000
23,5985	5,0000
23,6794	7,0000
23,7603	6,0000
23,8411	0,0000
23,9220	2,0000
24,0028	8,0000
24,0837	4,0000
24,1645	3,0000
24,2454	4,0000
24,3262	8,0000
24,4071	3,0000
24,4879	6,0000
24,5688	8,0000
24,6496	5,0000
24,7305	5,0000
24,8113	2,0000
24,8922	2,0000
24,9731	6,0000
25,0539	4,0000
25,1348	5,0000
25,2156	3,0000
25,2965	5,0000
25,3773	5,0000
25,4582	3,0000
25,5390	4,0000
25,6199	2,0000
25,7007	2,0000
25,7816	4,0000
25,8624	1,0000
25,9433	4,0000
26,0242	4,0000
26,1050	2,0000
26,1859	6,0000
26,2667	3,0000
26,3476	6,0000
26,4284	2,0000
26,5093	2,0000
26,5901	1,0000
26,6710	7,0000
26,7518	2,0000
26,8327	2,0000
26,9135	3,0000
26,9944	8,0000
27,0752	3,0000
27,1561	2,0000
27,2370	5,0000
27,3178	1,0000
27,3987	4,0000
27,4795	2,0000
27,5604	0,0000
27,6412	2,0000
27,7221	3,0000
27,8029	0,0000
27,8838	0,0000
27,9646	5,0000
28,0455	2,0000
28,1263	3,0000
28,2072	2,0000
28,2881	0,0000
28,3689	6,0000
28,4498	4,0000
28,5306	3,0000
28,6115	0,0000
28,6923	0,0000
28,7732	4,0000
28,8540	0,0000
28,9349	1,0000
29,0157	1,0000
29,0966	4,0000
29,1774	5,0000
29,2583	7,0000
29,3391	2,0000
29,4200	1,0000
29,5009	0,0000
29,5817	1,0000
29,6626	2,0000
29,7434	2,0000
29,8243	0,0000
29,9051	0,0000
29,9860	0,0000
30,0668	1,0000
30,1477	1,0000
30,2285	0,0000
30,3094	1,0000
30,3902	0,0000
30,4711	3,0000
30,5520	0,0000
30,6328	1,0000
30,7137	1,0000
30,7945	0,0000
30,8754	3,0000
30,9562	2,0000
31,0371	2,0000
31,1179	2,0000
31,1988	3,0000
31,2796	15,0000
31,3605	13,0000
31,4413	17,0000
31,5222	21,0000
31,6030	20,0000
31,6839	17,0000
31,7648	23,0000
31,8456	17,0000
31,9265	20,0000
32,0073	24,0000
32,0882	17,0000
32,1690	35,0000
32,2499	91,0000
32,3307	245,0000
32,4116	237,0000
32,4924	78,0000
32,5733	17,0000
32,6541	12,0000
32,7350	20,0000
32,8159	13,0000
32,8967	20,0000
32,9776	16,0000
33,0584	11,0000
33,1393	17,0000
33,2201	14,0000
33,3010	12,0000
33,3818	17,0000
33,4627	20,0000
33,5435	19,0000
33,6244	24,0000
33,7052	17,0000
33,7861	18,0000
33,8669	19,0000
33,9478	21,0000
34,0287	20,0000
34,1095	14,0000
34,1904	11,0000
34,2712	12,0000
34,3521	8,0000
34,4329	13,0000
34,5138	12,0000
34,5946	9,0000
34,6755	10,0000
34,7563	12,0000
34,8372	27,0000
34,9180	10,0000
34,9989	13,0000
35,0798	19,0000
35,1606	14,0000
35,2415	12,0000
35,3223	8,0000
35,4032	11,0000
35,4840	10,0000
35,5649	13,0000
35,6457	9,0000
35,7266	8,0000
35,8074	6,0000
35,8883	9,0000
35,9691	13,0000
36,0500	6,0000
36,1308	9,0000
36,2117	5,0000
36,2926	10,0000
36,3734	8,0000
36,4543	14,0000
36,5351	7,0000
36,6160	4,0000
36,6968	11,0000
36,7777	9,0000
36,8585	8,0000
36,9394	11,0000
37,0202	5,0000
37,1011	5,0000
37,1819	5,0000
37,2628	6,0000
37,3437	6,0000
37,4245	7,0000
37,5054	5,0000
37,5862	8,0000
37,6671	11,0000
37,7479	5,0000
37,8288	8,0000
37,9096	4,0000
37,9905	4,0000
38,0713	7,0000
38,1522	10,0000
38,2330	3,0000
38,3139	2,0000
38,3948	5,0000
38,4756	8,0000
38,5565	7,0000
38,6373	5,0000
38,7182	10,0000
38,7990	6,0000
38,8799	12,0000
38,9607	7,0000
39,0416	4,0000
39,1224	6,0000
39,2033	8,0000
39,2841	5,0000
39,3650	6,0000
39,4458	6,0000
39,5267	5,0000
39,6076	7,0000
39,6884	7,0000
39,7693	10,0000
39,8501	21,0000
39,9310	91,0000
40,0118	36,0000
40,0927	13,0000
40,1735	11,0000
40,2544	6,0000
40,3352	5,0000
40,4161	8,0000
40,4969	2,0000
40,5778	5,0000
40,6587	5,0000
40,7395	8,0000
40,8204	4,0000
40,9012	4,0000
40,9821	2,0000
41,0629	3,0000
41,1438	3,0000
41,2246	2,0000
41,3055	3,0000
41,3863	4,0000
41,4672	4,0000
41,5480	1,0000
41,6289	3,0000
41,7097	4,0000
41,7906	6,0000
41,8715	5,0000
41,9523	3,0000
42,0332	4,0000
42,1140	4,0000
42,1949	0,0000
42,2757	7,0000
42,3566	3,0000
42,4374	5,0000
42,5183	7,0000
42,5991	2,0000
42,6800	3,0000
42,7608	4,0000
42,8417	2,0000
42,9226	2,0000
43,0034	6,0000
43,0843	5,0000
43,1651	1,0000
43,2460	2,0000
43,3268	0,0000
43,4077	0,0000
43,4885	3,0000
43,5694	3,0000
43,6502	2,0000
43,7311	3,0000
43,8119	1,0000
43,8928	1,0000
43,9736	7,0000
44,0545	2,0000
44,1354	5,0000
44,2162	3,0000
44,2971	6,0000
44,3779	3,0000
44,4588	5,0000
44,5396	2,0000
44,6205	0,0000
44,7013	3,0000
44,7822	4,0000
44,8630	7,0000
44,9439	5,0000
45,0247	6,0000
45,1056	9,0000
45,1865	8,0000
45,2673	8,0000
45,3482	10,0000
45,4290	9,0000
45,5099	8,0000
45,5907	1,0000
45,6716	5,0000
45,7524	8,0000
45,8333	7,0000
45,9141	10,0000
45,9950	3,0000
46,0758	7,0000
46,1567	6,0000
46,2375	11,0000
46,3184	36,0000
46,3993	111,0000
46,4801	105,0000
46,5610	69,0000
46,6418	13,0000
46,7227	9,0000
46,8035	5,0000
46,8844	3,0000
46,9652	3,0000
47,0461	9,0000
47,1269	12,0000
47,2078	6,0000
47,2886	11,0000
47,3695	7,0000
47,4504	4,0000
47,5312	5,0000
47,6121	6,0000
47,6929	11,0000
47,7738	5,0000
47,8546	5,0000
47,9355	7,0000
48,0163	9,0000
48,0972	3,0000
48,1780	3,0000
48,2589	7,0000
48,3397	5,0000
48,4206	2,0000
48,5014	7,0000
48,5823	9,0000
48,6632	10,0000
48,7440	5,0000
48,8249	8,0000
48,9057	9,0000
48,9866	5,0000
49,0674	4,0000
49,1483	5,0000
49,2291	6,0000
49,3100	7,0000
49,3908	6,0000
49,4717	3,0000
49,5525	3,0000
49,6334	2,0000
49,7143	4,0000
49,7951	6,0000
49,8760	7,0000
49,9568	7,0000
50,0377	6,0000
50,1185	4,0000
50,1994	3,0000
50,2802	5,0000
50,3611	2,0000
50,4419	7,0000
50,5228	4,0000
50,6036	4,0000
50,6845	6,0000
50,7653	3,0000
50,8462	6,0000
50,9271	5,0000
51,0079	2,0000
51,0888	1,0000
51,1696	3,0000
51,2505	9,0000
51,3313	4,0000
51,4122	5,0000
51,4930	4,0000
51,5739	2,0000
51,6547	4,0000
51,7356	2,0000
51,8164	7,0000
51,8973	3,0000
51,9782	7,0000
52,0590	3,0000
52,1399	4,0000
52,2207	2,0000
52,3016	14,0000
52,3824	4,0000
52,4633	6,0000
52,5441	3,0000
52,6250	4,0000
52,7058	4,0000
52,7867	4,0000
52,8675	2,0000
52,9484	3,0000
53,0292	1,0000
53,1101	4,0000
53,1910	4,0000
53,2718	2,0000
53,3527	3,0000
53,4335	3,0000
53,5144	3,0000
53,5952	3,0000
53,6761	4,0000
53,7569	2,0000
53,8378	2,0000
53,9186	3,0000
53,9995	3,0000
54,0803	1,0000
54,1612	3,0000
54,2421	3,0000
54,3229	4,0000
54,4038	3,0000
54,4846	0,0000
54,5655	1,0000
54,6463	3,0000
54,7272	1,0000
54,8080	1,0000
54,8889	4,0000
54,9697	1,0000
55,0506	0,0000
55,1314	2,0000
55,2123	0,0000
55,2931	7,0000
55,3740	3,0000
55,4549	0,0000
55,5357	0,0000
55,6166	1,0000
55,6974	6,0000
55,7783	2,0000
55,8591	4,0000
55,9400	6,0000
56,0208	9,0000
56,1017	4,0000
56,1825	7,0000
56,2634	6,0000
56,3442	7,0000
56,4251	4,0000
56,5060	5,0000
56,5868	5,0000
56,6677	4,0000
56,7485	6,0000
56,8294	7,0000
56,9102	5,0000
56,9911	5,0000
57,0719	4,0000
57,1528	2,0000
57,2336	6,0000
57,3145	4,0000
57,3953	3,0000
57,4762	8,0000
57,5570	5,0000
57,6379	17,0000
57,7188	102,0000
57,7996	56,0000
57,8805	62,0000
57,9613	26,0000
58,0422	14,0000
58,1230	7,0000
58,2039	5,0000
58,2847	8,0000
58,3656	1,0000
58,4464	5,0000
58,5273	2,0000
58,6081	7,0000
58,6890	2,0000
58,7699	1,0000
58,8507	3,0000
58,9316	3,0000
59,0124	5,0000
59,0933	5,0000
59,1741	3,0000
59,2550	1,0000
59,3358	0,0000
59,4167	4,0000
59,4975	3,0000
59,5784	4,0000
59,6592	3,0000
59,7401	6,0000
59,8209	6,0000
59,9018	4,0000
59,9827	5,0000
60,0635	2,0000
60,1444	3,0000
60,2252	4,0000
60,3061	3,0000
60,3869	5,0000
60,4678	4,0000
60,5486	4,0000
60,6295	0,0000
60,7103	6,0000
60,7912	5,0000
60,8720	2,0000
60,9529	6,0000
61,0338	3,0000
61,1146	3,0000
61,1955	2,0000
61,2763	1,0000
61,3572	3,0000
61,4380	2,0000
61,5189	6,0000
61,5997	2,0000
61,6806	5,0000
61,7614	3,0000
61,8423	4,0000
61,9231	2,0000
62,0040	4,0000
62,0848	3,0000
62,1657	4,0000
62,2466	4,0000
62,3274	4,0000
62,4083	3,0000
62,4891	3,0000
62,5700	3,0000
62,6508	5,0000
62,7317	6,0000
62,8125	3,0000
62,8934	3,0000
62,9742	5,0000
63,0551	4,0000
63,1359	3,0000
63,2168	2,0000
63,2977	2,0000
63,3785	4,0000
63,4594	1,0000
63,5402	6,0000
63,6211	3,0000
63,7019	1,0000
63,7828	2,0000
63,8636	1,0000
63,9445	2,0000
64,0253	2,0000
64,1062	4,0000
64,1870	3,0000
64,2679	2,0000
64,3488	1,0000
64,4296	1,0000
64,5105	0,0000
64,5913	3,0000
64,6722	3,0000
64,7530	3,0000
64,8339	1,0000
64,9147	3,0000
64,9956	3,0000
65,0764	3,0000
65,1573	5,0000
65,2381	2,0000
65,3190	2,0000
65,3998	5,0000
65,4807	5,0000
65,5616	3,0000
65,6424	4,0000
65,7233	10,0000
65,8041	1,0000
65,8850	1,0000
65,9658	3,0000
66,0467	1,0000
66,1275	2,0000
66,2084	4,0000
66,2892	1,0000
66,3701	2,0000
66,4509	5,0000
66,5318	5,0000
66,6127	4,0000
66,6935	3,0000
66,7744	2,0000
66,8552	5,0000
66,9361	3,0000
67,0169	4,0000
67,0978	2,0000
67,1786	4,0000
67,2595	4,0000
67,3403	5,0000
67,4212	3,0000
67,5020	5,0000
67,5829	3,0000
67,6637	7,0000
67,7446	44,0000
67,8255	52,0000
67,9063	9,0000
67,9872	35,0000
68,0680	5,0000
68,1489	5,0000
68,2297	2,0000
68,3106	1,0000
68,3914	5,0000
68,4723	1,0000
68,5531	4,0000
68,6340	5,0000
68,7148	2,0000
68,7957	4,0000
68,8766	3,0000
68,9574	4,0000
69,0383	2,0000
69,1191	1,0000
69,2000	4,0000
69,2808	5,0000
69,3617	1,0000
69,4425	0,0000
69,5234	2,0000
69,6042	4,0000
69,6851	3,0000
69,7659	2,0000
69,8468	1,0000
69,9276	2,0000
70,0085	2,0000
70,0894	4,0000
70,1702	1,0000
70,2511	2,0000
70,3319	5,0000
70,4128	5,0000
70,4936	1,0000
70,5745	3,0000
70,6553	5,0000
70,7362	2,0000
70,8170	8,0000
70,8979	3,0000
70,9787	4,0000
71,0596	1,0000
71,1405	1,0000
71,2213	0,0000
71,3022	1,0000
71,3830	1,0000
71,4639	3,0000
71,5447	1,0000
71,6256	2,0000
71,7064	3,0000
71,7873	3,0000
71,8681	1,0000
71,9490	2,0000
72,0298	3,0000
72,1107	4,0000
72,1915	2,0000
72,2724	4,0000
72,3533	3,0000
72,4341	5,0000
72,5150	4,0000
72,5958	5,0000
72,6767	2,0000
72,7575	8,0000
72,8384	2,0000
72,9192	2,0000
73,0001	1,0000
73,0809	1,0000
73,1618	2,0000
73,2426	1,0000
73,3235	0,0000
73,4044	3,0000
73,4852	5,0000
73,5661	2,0000
73,6469	1,0000
73,7278	1,0000
73,8086	2,0000
73,8895	0,0000
73,9703	3,0000
74,0512	3,0000
74,1320	5,0000
74,2129	3,0000
74,2937	1,0000
74,3746	1,0000
74,4554	5,0000
74,5363	2,0000
74,6172	2,0000
74,6980	2,0000
74,7789	1,0000
74,8597	0,0000
74,9406	3,0000
75,0214	1,0000
75,1023	3,0000
75,1831	2,0000
75,2640	2,0000
75,3448	2,0000
75,4257	5,0000
75,5065	2,0000
75,5874	5,0000
75,6683	3,0000
75,7491	2,0000
75,8300	4,0000
75,9108	0,0000
75,9917	3,0000
76,0725	1,0000
76,1534	2,0000
76,2342	3,0000
76,3151	0,0000
76,3959	2,0000
76,4768	2,0000
76,5576	2,0000
76,6385	3,0000
76,7193	1,0000
76,8002	5,0000
76,8811	1,0000
76,9619	1,0000
77,0428	6,0000
77,1236	38,0000
77,2045	19,0000
77,2853	7,0000
77,3662	26,0000
77,4470	7,0000
77,5279	4,0000
77,6087	3,0000
77,6896	1,0000
77,7704	1,0000
77,8513	1,0000
77,9322	2,0000
78,0130	2,0000
78,0939	2,0000
78,1747	3,0000
78,2556	0,0000
78,3364	1,0000
78,4173	4,0000
78,4981	4,0000
78,5790	0,0000
78,6598	4,0000
78,7407	1,0000
78,8215	3,0000
78,9024	5,0000
78,9832	3,0000
79,0641	2,0000
79,1450	2,0000
79,2258	5,0000
79,3067	0,0000
79,3875	3,0000
79,4684	0,0000
79,5492	2,0000
79,6301	4,0000
79,7109	1,0000
79,7918	5,0000
79,8726	3,0000
79,9535	2,0000
80,0343	1,0000
80,1152	1,0000
80,1961	3,0000
80,2769	2,0000
80,3578	5,0000
80,4386	2,0000
80,5195	0,0000
80,6003	0,0000
80,6812	0,0000
80,7620	1,0000
80,8429	1,0000
80,9237	4,0000
81,0046	1,0000
81,0854	0,0000
81,1663	4,0000
81,2471	2,0000
81,3280	1,0000
81,4089	1,0000
81,4897	3,0000
81,5706	6,0000
81,6514	13,0000
81,7323	8,0000
81,8131	3,0000
81,8940	8,0000
81,9748	5,0000
82,0557	5,0000
82,1365	0,0000
82,2174	3,0000
82,2982	2,0000
82,3791	2,0000
82,4600	2,0000
82,5408	1,0000
82,6217	4,0000
82,7025	1,0000
82,7834	3,0000
82,8642	2,0000
82,9451	2,0000
83,0259	1,0000
83,1068	0,0000
83,1876	4,0000
83,2685	2,0000
83,3493	1,0000
83,4302	4,0000
83,5110	0,0000
83,5919	5,0000
83,6728	3,0000
83,7536	2,0000
83,8345	1,0000
83,9153	2,0000
83,9962	3,0000
84,0770	0,0000
84,1579	2,0000
84,2387	2,0000
84,3196	0,0000
84,4004	0,0000
84,4813	3,0000
84,5621	1,0000
84,6430	3,0000
84,7239	1,0000
84,8047	1,0000
84,8856	1,0000
84,9664	2,0000
85,0473	4,0000
85,1281	1,0000
85,2090	0,0000
85,2898	3,0000
85,3707	2,0000
85,4515	2,0000
85,5324	3,0000
85,6132	2,0000
85,6941	2,0000
85,7749	2,0000
85,8558	3,0000
85,9367	3,0000
86,0175	1,0000
86,0984	6,0000
86,1792	20,0000
86,2601	6,0000
86,3409	4,0000
86,4218	14,0000
86,5026	5,0000
86,5835	0,0000
86,6643	2,0000
86,7452	0,0000
86,8260	1,0000
86,9069	1,0000
86,9878	1,0000
87,0686	3,0000
87,1495	1,0000
87,2303	5,0000
87,3112	2,0000
87,3920	1,0000
87,4729	1,0000
87,5537	1,0000
87,6346	1,0000
87,7154	0,0000
87,7963	2,0000
87,8771	1,0000
87,9580	0,0000
88,0388	1,0000
88,1197	0,0000
88,2006	1,0000
88,2814	1,0000
88,3623	0,0000
88,4431	0,0000
88,5240	2,0000
88,6048	1,0000
88,6857	3,0000
88,7665	1,0000
88,8474	2,0000
88,9282	3,0000
89,0091	1,0000
89,0899	1,0000
89,1708	1,0000
89,2517	2,0000
89,3325	1,0000
89,4134	2,0000
89,4942	1,0000
89,5751	0,0000
89,6559	2,0000
89,7368	3,0000
89,8176	2,0000
89,8985	2,0000
89,9793	2,0000
90,0602	1,0000
90,1410	0,0000
90,2219	1,0000
90,3028	1,0000
90,3836	1,0000
90,4645	5,0000
90,5453	0,0000
90,6262	4,0000
90,7070	1,0000
90,7879	2,0000
90,8687	2,0000
90,9496	2,0000
91,0304	3,0000
91,1113	1,0000
91,1921	1,0000
91,2730	5,0000
91,3538	1,0000
91,4347	4,0000
91,5156	1,0000
91,5964	0,0000
91,6773	1,0000
91,7581	3,0000
91,8390	1,0000
91,9198	1,0000
92,0007	1,0000
92,0815	2,0000
92,1624	1,0000
92,2432	1,0000
92,3241	4,0000
92,4049	5,0000
92,4858	1,0000
92,5667	2,0000
92,6475	2,0000
92,7284	4,0000
92,8092	1,0000
92,8901	1,0000
92,9709	1,0000
93,0518	2,0000
93,1326	2,0000
93,2135	2,0000
93,2943	2,0000
93,3752	2,0000
93,4560	2,0000
93,5369	1,0000
93,6177	1,0000
93,6986	0,0000
93,7795	0,0000
93,8603	1,0000
93,9412	1,0000
94,0220	0,0000
94,1029	1,0000
94,1837	3,0000
94,2646	1,0000
94,3454	2,0000
94,4263	3,0000
94,5071	2,0000
94,5880	0,0000
94,6688	2,0000
94,7497	5,0000
94,8306	3,0000
94,9114	5,0000
94,9923	5,0000
95,0731	30,0000
95,1540	24,0000
95,2348	7,0000
95,3157	10,0000
95,3965	14,0000
95,4774	11,0000
95,5582	7,0000
95,6391	2,0000
95,7199	2,0000
95,8008	1,0000
95,8816	1,0000
95,9625	4,0000
96,0434	5,0000
96,1242	0,0000
96,2051	3,0000
96,2859	0,0000
96,3668	1,0000
96,4476	0,0000
96,5285	0,0000
96,6093	1,0000
96,6902	2,0000
96,7710	1,0000
96,8519	0,0000
96,9327	2,0000
97,0136	1,0000
97,0945	0,0000
97,1753	2,0000
97,2562	0,0000
97,3370	0,0000
97,4179	0,0000
97,4987	2,0000
97,5796	2,0000
97,6604	1,0000
97,7413	0,0000
97,8221	0,0000
97,9030	2,0000
97,9838	3,0000
98,0647	2,0000
98,1455	1,0000
98,2264	2,0000
98,3073	2,0000
98,3881	2,0000
98,4690	2,0000
98,5498	0,0000
98,6307	1,0000
98,7115	0,0000
98,7924	1,0000
98,8732	4,0000
98,9541	1,0000
99,0349	0,0000
99,1158	1,0000
99,1966	1,0000
99,2775	2,0000
99,3584	1,0000
99,4392	1,0000
99,5201	1,0000
99,6009	0,0000
99,6818	1,0000
99,7626	0,0000
99,8435	3,0000
99,9243	0,0000
100,0052	2,0000